trial,contrast,angle,stimleft,respleft,correct,rt
1,0.0200,-5.00,0,1,0,0.6797
2,0.0200,5.00,1,1,1,0.3853
3,0.0800,5.00,1,1,1,0.2764
4,0.0600,5.00,1,1,1,0.3521
5,0.0200,5.00,1,1,1,0.4230
6,0.0400,5.00,1,1,1,0.3751
7,0.0600,5.00,1,1,1,0.3583
8,0.0200,-5.00,0,1,0,0.3013
9,0.0600,5.00,1,0,0,0.4656
10,0.0400,-5.00,0,1,0,0.3816
11,0.0800,-5.00,0,0,1,0.3145
12,0.0800,5.00,1,0,0,0.3954
13,0.0800,5.00,1,0,0,0.3607
14,0.0400,-5.00,0,0,1,0.3878
15,0.1600,-5.00,0,0,1,0.2709
16,0.0400,-5.00,0,0,1,0.2936
17,0.0400,-5.00,0,1,0,0.3191
18,0.0600,5.00,1,0,0,0.3559
19,0.1600,5.00,1,1,1,0.3804
20,0.0800,-5.00,0,1,0,0.3405
21,0.0200,-5.00,0,0,1,0.3237
22,0.1600,-5.00,0,0,1,0.2770
23,0.0400,-5.00,0,0,1,0.2610
24,0.0400,5.00,1,0,0,0.4224
25,0.1600,-5.00,0,0,1,0.2548
26,0.0800,-5.00,0,0,1,0.3246
27,0.0800,5.00,1,0,0,0.3048
28,0.0400,5.00,1,0,0,0.2331
29,0.0400,-5.00,0,0,1,0.3192
30,0.0600,-5.00,0,0,1,0.2955
31,0.0400,5.00,1,0,0,0.3067
32,0.1600,-5.00,0,0,1,0.3233
33,0.0600,-5.00,0,0,1,0.2415
34,0.0600,5.00,1,0,0,0.2810
35,0.1600,5.00,1,1,1,0.3670
36,0.0800,5.00,1,1,1,0.3171
37,0.0200,5.00,1,1,1,0.3495
38,0.0400,-5.00,0,1,0,0.2834
39,0.0800,5.00,1,1,1,0.3234
40,0.1600,5.00,1,1,1,0.2724
41,0.0800,5.00,1,1,1,0.3048
42,0.0200,5.00,1,1,1,0.2599
43,0.0400,5.00,1,1,1,0.2816
44,0.0200,5.00,1,1,1,0.3004
45,0.0800,5.00,1,0,0,0.2665
46,0.0800,-5.00,0,0,1,0.2921
47,0.1600,-5.00,0,0,1,0.2587
48,0.0400,5.00,1,0,0,0.2681
49,0.0800,-5.00,0,0,1,0.3095
50,0.0400,5.00,1,0,0,0.3223
51,0.0400,5.00,1,1,1,0.2890
52,0.0200,-5.00,0,0,1,0.2546
53,0.0800,-5.00,0,0,1,0.1719
54,0.0400,5.00,1,0,0,0.2164
55,0.0400,-5.00,0,0,1,0.2613
56,0.0400,-5.00,0,0,1,0.2712
57,0.0400,5.00,1,0,0,0.2348
58,0.1600,5.00,1,1,1,0.2156
59,0.0600,-5.00,0,1,0,0.2967
60,0.0400,-5.00,0,0,1,0.2276
61,0.0200,5.00,1,0,0,0.2484
62,0.0800,-5.00,0,0,1,0.1805
63,0.0200,-5.00,0,1,0,0.3083
64,0.0400,-5.00,0,1,0,0.3336
65,0.0800,5.00,1,0,0,0.2604
66,0.0200,5.00,1,1,1,0.2455
67,0.0600,5.00,1,0,0,0.2842
68,0.0800,5.00,1,1,1,0.1992
69,0.0800,-5.00,0,0,1,0.3661
70,0.0600,-5.00,0,1,0,0.2878
71,0.0200,5.00,1,0,0,0.2576
72,0.0400,-5.00,0,0,1,0.2297
73,0.0400,5.00,1,1,1,0.2463
74,0.0400,5.00,1,0,0,0.3436
75,0.0200,-5.00,0,1,0,0.3294
76,0.0800,-5.00,0,0,1,0.2253
77,0.0600,-5.00,0,0,1,0.2551
78,0.0200,-5.00,0,0,1,0.3734
79,0.1600,5.00,1,1,1,0.2367
80,0.0600,-5.00,0,0,1,0.3123
81,0.0400,-5.00,0,0,1,0.4137
82,0.0400,-5.00,0,0,1,0.3921
83,0.0200,-5.00,0,0,1,0.3497
84,0.0600,-5.00,0,0,1,0.3532
85,0.0400,-5.00,0,1,0,0.3375
86,0.0800,5.00,1,0,0,0.3393
87,0.1600,-5.00,0,0,1,0.2520
88,0.0600,5.00,1,1,1,0.3159
89,0.0800,-5.00,0,0,1,0.3207
90,0.0600,-5.00,0,1,0,0.2749
91,0.0200,5.00,1,0,0,0.2680
92,0.0400,-5.00,0,0,1,0.2709
93,0.0800,-5.00,0,1,0,0.2396
94,0.0400,-5.00,0,1,0,0.2974
95,0.0400,-5.00,0,0,1,0.2909
96,0.1600,-5.00,0,0,1,0.3112
97,0.1600,-5.00,0,0,1,0.2242
98,0.0800,5.00,1,0,0,0.2516
99,0.0800,-5.00,0,1,0,0.2021
100,0.0800,5.00,1,0,0,0.1575
101,0.0800,-5.00,0,0,1,0.1434
102,0.0400,5.00,1,0,0,0.2276
103,0.0800,-5.00,0,0,1,0.3197
104,0.0600,5.00,1,0,0,0.1799
105,0.0400,5.00,1,0,0,0.2262
106,0.0600,-5.00,0,0,1,0.1602
107,0.0200,-5.00,0,0,1,0.2005
108,0.0800,5.00,1,1,1,0.2214
109,0.1600,5.00,1,1,1,0.1703
110,0.0800,5.00,1,1,1,0.1816
111,0.0600,5.00,1,1,1,0.1590
112,0.1600,5.00,1,1,1,0.1893
113,0.0200,-5.00,0,0,1,0.2601
114,0.0400,5.00,1,0,0,0.2404
115,0.0800,-5.00,0,0,1,0.1340
116,0.1600,-5.00,0,0,1,0.2209
117,0.0800,-5.00,0,0,1,0.2157
118,0.1600,5.00,1,1,1,0.2264
119,0.0200,5.00,1,1,1,0.3302
120,0.0800,5.00,1,1,1,0.2421
121,0.0400,-5.00,0,1,0,0.2429
122,0.0800,5.00,1,0,0,0.2764
123,0.0400,5.00,1,1,1,0.2135
124,0.0400,5.00,1,0,0,0.2631
125,0.1600,-5.00,0,0,1,0.1639
126,0.0800,-5.00,0,0,1,0.1981
127,0.0800,-5.00,0,1,0,0.2502
128,0.0200,5.00,1,0,0,0.1600
129,0.0800,-5.00,0,1,0,0.1973
130,0.0600,5.00,1,1,1,0.1811
131,0.0200,-5.00,0,0,1,0.1805
132,0.0200,5.00,1,1,1,0.1684
133,0.1600,5.00,1,1,1,0.1634
134,0.0600,-5.00,0,0,1,0.2158
135,0.0400,5.00,1,1,1,0.2948
136,0.0400,5.00,1,1,1,0.1906
137,0.0600,5.00,1,1,1,0.2562
138,0.0200,5.00,1,1,1,0.1449
139,0.1600,5.00,1,1,1,0.1539
140,0.0400,5.00,1,1,1,0.1831
141,0.1600,-5.00,0,0,1,0.1640
142,0.0800,-5.00,0,0,1,0.3151
143,0.0600,5.00,1,1,1,0.2140
144,0.0600,5.00,1,1,1,0.1952
145,0.1600,5.00,1,1,1,0.1547
146,0.0200,5.00,1,1,1,0.1289
147,0.0200,5.00,1,1,1,0.1540
148,0.1600,-5.00,0,0,1,0.2671
149,0.0200,5.00,1,0,0,0.2501
150,0.0600,-5.00,0,1,0,0.2156
151,0.0200,5.00,1,0,0,0.1993
152,0.0200,-5.00,0,1,0,0.1909
153,0.1600,5.00,1,1,1,0.2127
154,0.0800,-5.00,0,1,0,0.1889
155,0.0400,5.00,1,0,0,0.2312
156,0.0400,5.00,1,1,1,0.1678
157,0.1600,-5.00,0,0,1,0.1755
158,0.1600,5.00,1,1,1,0.1666
159,0.0200,-5.00,0,0,1,0.2100
160,0.1600,-5.00,0,0,1,0.2097
161,0.0400,5.00,1,0,0,0.2576
162,0.0400,5.00,1,1,1,0.2488
163,0.0400,5.00,1,1,1,0.2095
164,0.1600,-5.00,0,0,1,0.2290
165,0.0400,5.00,1,0,0,0.2362
166,0.1600,-5.00,0,0,1,0.2601
167,0.1600,-5.00,0,0,1,0.2212
168,0.0200,-5.00,0,0,1,0.2124
169,0.1600,-5.00,0,0,1,0.2353
170,0.1600,-5.00,0,0,1,0.2593
171,0.0600,5.00,1,0,0,0.2199
172,0.0200,5.00,1,0,0,0.2052
173,0.0400,-5.00,0,1,0,0.2106
174,0.0200,-5.00,0,0,1,0.2226
175,0.0600,5.00,1,0,0,0.2070
176,0.0600,5.00,1,1,1,0.2451
177,0.1600,-5.00,0,0,1,0.1684
178,0.1600,5.00,1,0,0,0.2737
179,0.0800,5.00,1,1,1,0.1940
180,0.0600,-5.00,0,0,1,0.2283
181,0.0600,5.00,1,0,0,0.2654
182,0.0800,5.00,1,0,0,0.2825
183,0.1600,5.00,1,0,0,0.1928
184,0.0400,-5.00,0,1,0,0.2330
185,0.0600,5.00,1,1,1,0.1611
186,0.0400,-5.00,0,0,1,0.2158
187,0.1600,-5.00,0,0,1,2.0520
188,0.1600,5.00,1,1,1,0.2006
189,0.0600,5.00,1,1,1,0.1887
190,0.0200,-5.00,0,1,0,0.1409
191,0.0600,5.00,1,1,1,0.1830
192,0.1600,5.00,1,1,1,0.2394
193,0.0400,-5.00,0,0,1,0.2219
194,0.0800,-5.00,0,0,1,0.2664
195,0.0600,5.00,1,1,1,0.1951
196,0.0400,5.00,1,1,1,0.1992
197,0.0200,5.00,1,1,1,0.2015
198,0.0800,-5.00,0,1,0,0.2029
199,0.0200,5.00,1,0,0,0.1636
200,0.0800,5.00,1,1,1,0.2021
